# Wavelength Response
580.000  0.000000
581.000  0.000000
582.000  0.000000
583.000  0.000000
584.000  0.000000
585.000  0.000000
586.000  0.000000
587.000  0.000000
588.000  0.000000
589.000  0.000000
590.000  0.000000
591.000  0.000800000
592.000  0.00160000
593.000  0.00240000
594.000  0.00320000
595.000  0.00400000
596.000  0.00480000
597.000  0.00560000
598.000  0.00640000
599.000  0.00720000
600.000  0.00800000
601.000  0.0232000
602.000  0.0384000
603.000  0.0536000
604.000  0.0688000
605.000  0.0840000
606.000  0.0992000
607.000  0.114400
608.000  0.129600
609.000  0.144800
610.000  0.160000
611.000  0.204800
612.000  0.249600
613.000  0.294400
614.000  0.339200
615.000  0.384000
616.000  0.428800
617.000  0.473600
618.000  0.518400
619.000  0.563200
620.000  0.608000
621.000  0.628800
622.000  0.649600
623.000  0.670400
624.000  0.691200
625.000  0.712000
626.000  0.732800
627.000  0.753600
628.000  0.774400
629.000  0.795200
630.000  0.816000
631.000  0.820000
632.000  0.824000
633.000  0.828000
634.000  0.832000
635.000  0.836000
636.000  0.840000
637.000  0.844000
638.000  0.848000
639.000  0.852000
640.000  0.856000
641.000  0.860000
642.000  0.864000
643.000  0.868000
644.000  0.872000
645.000  0.876000
646.000  0.880000
647.000  0.884000
648.000  0.888000
649.000  0.892000
650.000  0.896000
651.000  0.901600
652.000  0.907200
653.000  0.912800
654.000  0.918400
655.000  0.924000
656.000  0.929600
657.000  0.935200
658.000  0.940800
659.000  0.946400
660.000  0.952000
661.000  0.956800
662.000  0.961600
663.000  0.966400
664.000  0.971200
665.000  0.976000
666.000  0.980800
667.000  0.985600
668.000  0.990400
669.000  0.995200
670.000  1.00000
671.000  0.996800
672.000  0.993600
673.000  0.990400
674.000  0.987200
675.000  0.984000
676.000  0.980800
677.000  0.977600
678.000  0.974400
679.000  0.971200
680.000  0.968000
681.000  0.948800
682.000  0.929600
683.000  0.910400
684.000  0.891200
685.000  0.872000
686.000  0.852800
687.000  0.833600
688.000  0.814400
689.000  0.795200
690.000  0.776000
691.000  0.746400
692.000  0.716800
693.000  0.687200
694.000  0.657600
695.000  0.628000
696.000  0.598400
697.000  0.568800
698.000  0.539200
699.000  0.509600
700.000  0.480000
701.000  0.457600
702.000  0.435200
703.000  0.412800
704.000  0.390400
705.000  0.368000
706.000  0.345600
707.000  0.323200
708.000  0.300800
709.000  0.278400
710.000  0.256000
711.000  0.243200
712.000  0.230400
713.000  0.217600
714.000  0.204800
715.000  0.192000
716.000  0.179200
717.000  0.166400
718.000  0.153600
719.000  0.140800
720.000  0.128000
721.000  0.120800
722.000  0.113600
723.000  0.106400
724.000  0.0992000
725.000  0.0920000
726.000  0.0848000
727.000  0.0776000
728.000  0.0704000
729.000  0.0632000
730.000  0.0560000
731.000  0.0528000
732.000  0.0496000
733.000  0.0464000
734.000  0.0432000
735.000  0.0400000
736.000  0.0368000
737.000  0.0336000
738.000  0.0304000
739.000  0.0272000
740.000  0.0240000
741.000  0.0224000
742.000  0.0208000
743.000  0.0192000
744.000  0.0176000
745.000  0.0160000
746.000  0.0144000
747.000  0.0128000
748.000  0.0112000
749.000  0.00960000
750.000  0.00800000
751.000  0.00800000
752.000  0.00800000
753.000  0.00800000
754.000  0.00800000
755.000  0.00800000
756.000  0.00800000
757.000  0.00800000
758.000  0.00800000
759.000  0.00800000
760.000  0.00800000
761.000  0.00720000
762.000  0.00640000
763.000  0.00560000
764.000  0.00480000
765.000  0.00400000
766.000  0.00320000
767.000  0.00240000
768.000  0.00160000
769.000  0.000800000